{
  "resourceType": "Bundle",
  "meta": {
    "profile": [
      "http://hl7.org/fhir/StructureDefinition/Bundle"
    ]
  },
  "type": "document",
  "timestamp": "2024-11-18T15:02:42+01:00",
  "id": "4c9e233f-ebcf-4c6f-ba8b-1727226b6840",
  "identifier": {
    "system": "urn:ietf:rfc:3986",
    "value": "urn:uuid:4c9e233f-ebcf-4c6f-ba8b-1727226b6840"
  },
  "entry": [
    {
      "fullUrl": "https://gematik.de/fhir/epa-medication/Composition/aa214255-bb3d-445c-8f98-454ab47bc3af",
      "resource": {
        "resourceType": "Composition",
        "id": "aa214255-bb3d-445c-8f98-454ab47bc3af",
        "meta": {
          "versionId": "2",
          "lastUpdated": "2023-03-16T09:17:00+01:00",
          "profile": [
            "https://gematik.de/fhir/epa-medication/StructureDefinition/epa-plan-composition"
          ]
        },
        "status": "final",
        "title": "Medikationsplan",
        "section": [
          {
            "title": "Allergien/Unverträglichkeiten-Liste-Einträge",
            "code": {
              "coding": [
                {
                  "system": "https://gematik.de/fhir/terminology/CodeSystem/epa-plan-composition-section-codes-cs",
                  "code": "SectionAMTSRZIAllergienUnvertraeglichkeiten",
                  "display": "Bereich AMTS-relevante Zusatzinformationen - Allergien/Unverträglichkeiten",
                  "version": "1.0.1"
                }
              ]
            },
            "entry": [
              {
                "reference": "https://gematik.de/fhir/epa-medication/List/9c3b50f7-a78c-4f90-aa81-c8568b8b632b/_history/1"
              }
            ]
          },
          {
            "title": "Beobachtungen/Messungen-Liste-Einträge",
            "code": {
              "coding": [
                {
                  "system": "https://gematik.de/fhir/terminology/CodeSystem/epa-plan-composition-section-codes-cs",
                  "code": "SectionAMTSRZIBeobachtungenMessungen",
                  "display": "Bereich AMTS-relevante Zusatzinformationen - Beobachtungen/Messungen",
                  "version": "1.0.1"
                }
              ]
            },
            "entry": [
              {
                "reference": "https://gematik.de/fhir/epa-medication/List/6b2ae15e-d71f-4bc8-9892-5db8bb16a209/_history/2"
              }
            ]
          },
          {
            "title": "Medikations-Informationen-Liste-Einträge",
            "code": {
              "coding": [
                {
                  "system": "http://snomed.info/sct",
                  "version": "http://snomed.info/sct/11000274103/version/20240515",
                  "code": "721912009",
                  "display": "Medication summary document (record artifact)"
                }
              ]
            },
            "entry": [
              {
                "reference": "https://gematik.de/fhir/epa-medication/List/db7e07bd-2505-46a9-a714-fa069f86d1a2/_history/2"
              }
            ]
          },
          {
            "title": "Herkunftsinformations-Einträge",
            "code": {
              "coding": [
                {
                  "system": "https://gematik.de/fhir/terminology/CodeSystem/epa-plan-composition-section-codes-cs",
                  "code": "SectionHerkunftsinformationEintraege",
                  "display": "Bereich Herkunftsinformation-Einträge",
                  "version": "1.0.1"
                }
              ]
            },
            "entry": [
              {
                "reference": "https://gematik.de/fhir/epa-medication/Provenance/5c083fb5-7880-4be9-bda5-b84388cece6d/_history/1"
              },
              {
                "reference": "https://gematik.de/fhir/epa-medication/Provenance/4326beb1-4986-41c4-8bca-74a7e3290d6a/_history/1"
              },
              {
                "reference": "https://gematik.de/fhir/epa-medication/Provenance/9159e50f-c079-4144-8aab-6dc8ce7867b6/_history/1"
              },
              {
                "reference": "https://gematik.de/fhir/epa-medication/Provenance/4b1e2dd3-0550-41d1-bf6c-392f4090e73a/_history/1"
              },
              {
                "reference": "https://gematik.de/fhir/epa-medication/Provenance/f101d993-a02d-440f-be8e-cb939eeb6f2f/_history/1"
              },
              {
                "reference": "https://gematik.de/fhir/epa-medication/Provenance/60625c8f-1a9a-4962-ba57-d75535acc2fb/_history/1"
              },
              {
                "reference": "https://gematik.de/fhir/epa-medication/Provenance/16732f3e-2298-40bd-9e20-bf3cdafc91d5/_history/1"
              },
              {
                "reference": "https://gematik.de/fhir/epa-medication/Provenance/b5106c14-cd20-4100-946b-b2dbe0b80a5f/_history/1"
              },
              {
                "reference": "https://gematik.de/fhir/epa-medication/Provenance/a8a7405f-a5e1-4698-a83f-e143c7d8536d/_history/1"
              },
              {
                "reference": "https://gematik.de/fhir/epa-medication/Provenance/586cc036-e453-402a-b738-efa662150dc6/_history/1"
              },
              {
                "reference": "https://gematik.de/fhir/epa-medication/Provenance/ffd6eff8-beaa-4762-a3dd-d97ab01552e5/_history/1"
              },
              {
                "reference": "https://gematik.de/fhir/epa-medication/Provenance/8b1b1269-ee80-476c-bc89-e51d031cc8ff/_history/1"
              },
              {
                "reference": "https://gematik.de/fhir/epa-medication/Provenance/c6047efd-7bdd-4e2a-8a66-94d91d379a1a/_history/1"
              },
              {
                "reference": "https://gematik.de/fhir/epa-medication/Provenance/a8a7405f-a5e1-4698-a83f-e143c7d8536d/_history/1"
              }
            ]
          }
        ],
        "subject": {
          "identifier": {
            "type": {
              "coding": [
                {
                  "system": "http://fhir.de/CodeSystem/identifier-type-de-basis",
                  "code": "KVZ10",
                  "display": "Krankenversichertennummer"
                }
              ]
            },
            "system": "http://fhir.de/sid/gkv/kvid-10",
            "value": "Z888888888"
          }
        },
        "type": {
          "coding": [
            {
              "code": "736378000",
              "system": "http://snomed.info/sct",
              "version": "http://snomed.info/sct/11000274103/version/20240515",
              "display": "Medication management plan (record artifact)"
            }
          ]
        },
        "date": "2023-03-16T09:17:00+01:00",
        "author": [
          {
            "reference": "https://gematik.de/fhir/epa-medication/PractitionerRole/363e6227-9487-4a69-8b19-0597a767a5a9"
          }
        ]
      }
    },
    {
      "fullUrl": "https://gematik.de/fhir/epa-medication/PractitionerRole/363e6227-9487-4a69-8b19-0597a767a5a9",
      "resource": {
        "resourceType": "PractitionerRole",
        "id": "363e6227-9487-4a69-8b19-0597a767a5a9",
        "meta": {
          "profile": [
            "https://gematik.de/fhir/epa/StructureDefinition/epa-practitioner-role"
          ]
        },
        "practitioner": {
          "reference": "https://gematik.de/fhir/epa-medication/Practitioner/2714df47-2b06-4178-a05d-dc4e99064777"
        },
        "organization": {
          "reference": "https://gematik.de/fhir/epa-medication/Organization/d4adfc6c-4444-4037-aa25-b9726ad0b2a6"
        },
        "code": [
          {
            "coding": [
              {
                "code": "API",
                "system": "https://gematik.de/fhir/terminology/CodeSystem/epa-role-care-cs",
                "version": "1.0.1",
                "display": "Ärztliche(r) PraxisinhaberIn"
              }
            ]
          }
        ],
        "specialty": [
          {
            "coding": [
              {
                "code": "01",
                "system": "https://fhir.kbv.de/CodeSystem/KBV_CS_SFHIR_BAR2_ARZTNRFACHGRUPPE",
                "version": "1.03",
                "display": "Allgemeinmedizin"
              }
            ]
          }
        ],
        "telecom": [
          {
            "system": "email",
            "value": "info@praxis-kuehn.de"
          },
          {
            "system": "phone",
            "value": "49(0)3073111893"
          }
        ]
      }
    },
    {
      "fullUrl": "https://gematik.de/fhir/epa-medication/Organization/d4adfc6c-4444-4037-aa25-b9726ad0b2a6",
      "resource": {
        "resourceType": "Organization",
        "id": "d4adfc6c-4444-4037-aa25-b9726ad0b2a6",
        "meta": {
          "tag": [
            {
              "system": "https://gematik.de/fhir/directory/CodeSystem/Origin"
            }
          ],
          "versionId": "1",
          "lastUpdated": "2023-02-03T11:30:00+01:00",
          "profile": [
            "https://gematik.de/fhir/directory/StructureDefinition/OrganizationDirectory"
          ]
        },
        "identifier": [
          {
            "type": {
              "coding": [
                {
                  "system": "http://terminology.hl7.org/CodeSystem/v2-0203",
                  "code": "PRN",
                  "display": "Provider number"
                }
              ]
            },
            "system": "https://gematik.de/fhir/sid/telematik-id",
            "value": "T24242424242424"
          }
        ],
        "type": [
          {
            "coding": [
              {
                "system": "https://gematik.de/fhir/directory/CodeSystem/OrganizationProfessionOID",
                "code": "1.2.276.0.76.4.50",
                "version": "0.11.12",
                "display": "Betriebsstätte Arzt"
              }
            ]
          }
        ],
        "name": "Hausarztpraxis Minna Kühn",
        "telecom": [
          {
            "system": "phone",
            "value": "00493073111893"
          }
        ],
        "address": [
          {
            "type": "both",
            "line": [
              "Wladimir-Wiese-Straße 9"
            ],
            "city": "Berlin",
            "postalCode": "37220",
            "country": "D"
          }
        ]
      }
    },
    {
      "fullUrl": "https://gematik.de/fhir/epa-medication/Practitioner/2714df47-2b06-4178-a05d-dc4e99064777",
      "resource": {
        "resourceType": "Practitioner",
        "id": "2714df47-2b06-4178-a05d-dc4e99064777",
        "meta": {
          "tag": [
            {
              "system": "https://gematik.de/fhir/directory/CodeSystem/Origin"
            }
          ],
          "versionId": "1",
          "lastUpdated": "2023-02-03T11:30:00+01:00",
          "profile": [
            "https://gematik.de/fhir/directory/StructureDefinition/PractitionerDirectory"
          ]
        },
        "identifier": [
          {
            "type": {
              "coding": [
                {
                  "system": "http://terminology.hl7.org/CodeSystem/v2-0203",
                  "code": "PRN",
                  "display": "Provider number"
                }
              ]
            },
            "system": "https://gematik.de/fhir/sid/telematik-id",
            "value": "T1234244333333"
          }
        ],
        "name": [
          {
            "use": "official",
            "text": "Dr. med. Minna Kühn",
            "family": "Kühn",
            "given": [
              "Minna"
            ],
            "prefix": [
              "Dr. med."
            ]
          }
        ]
      }
    },
    {
      "fullUrl": "https://gematik.de/fhir/epa-medication/List/9c3b50f7-a78c-4f90-aa81-c8568b8b632b",
      "resource": {
        "resourceType": "List",
        "id": "9c3b50f7-a78c-4f90-aa81-c8568b8b632b",
        "meta": {
          "versionId": "1",
          "lastUpdated": "2017-06-15T14:30:00+01:00",
          "profile": [
            "https://gematik.de/fhir/epa-medication/StructureDefinition/epa-plan-allergy-intolerance-list"
          ]
        },
        "status": "current",
        "mode": "snapshot",
        "subject": {
          "identifier": {
            "type": {
              "coding": [
                {
                  "system": "http://fhir.de/CodeSystem/identifier-type-de-basis",
                  "code": "KVZ10",
                  "display": "Krankenversichertennummer"
                }
              ]
            },
            "system": "http://fhir.de/sid/gkv/kvid-10",
            "value": "Z888888888"
          }
        },
        "code": {
          "coding": [
            {
              "code": "allergies",
              "system": "http://terminology.hl7.org/CodeSystem/list-example-use-codes",
              "display": "Allergies"
            }
          ]
        },
        "date": "2023-02-03",
        "emptyReason": {
          "coding": [
            {
              "code": "nilknown",
              "system": "http://terminology.hl7.org/CodeSystem/list-empty-reason",
              "display": "Nil Known"
            }
          ]
        }
      }
    },
    {
      "fullUrl": "https://gematik.de/fhir/epa-medication/Patient/f62e0b20-db54-4744-b2da-b552eb04816f",
      "resource": {
        "resourceType": "Patient",
        "id": "f62e0b20-db54-4744-b2da-b552eb04816f",
        "meta": {
          "profile": [
            "https://gematik.de/fhir/epa/StructureDefinition/epa-patient"
          ]
        },
        "name": [
          {
            "use": "official",
            "text": "Gertrud Feininger",
            "family": "Feininger",
            "given": [
              "Gertrud"
            ]
          }
        ],
        "identifier": [
          {
            "type": {
              "coding": [
                {
                  "system": "http://fhir.de/CodeSystem/identifier-type-de-basis",
                  "code": "KVZ10",
                  "display": "Krankenversichertennummer"
                }
              ]
            },
            "system": "http://fhir.de/sid/gkv/kvid-10",
            "value": "Z888888888"
          }
        ],
        "telecom": [
          {
            "system": "email",
            "value": "gertrud-feininger@miopatientwebmail.de"
          },
          {
            "system": "phone",
            "value": "0049111234567"
          }
        ],
        "gender": "female",
        "birthDate": "1944-09-27",
        "address": [
          {
            "type": "both",
            "line": [
              "Feinallee 42"
            ],
            "city": "Berlin",
            "postalCode": "90000",
            "country": "D"
          }
        ],
        "maritalStatus": {
          "coding": [
            {
              "system": "http://terminology.hl7.org/CodeSystem/v3-MaritalStatus",
              "version": "3.0.0",
              "code": "D",
              "display": "Divorced"
            }
          ]
        },
        "communication": [
          {
            "language": {
              "coding": [
                {
                  "system": "urn:ietf:bcp:47",
                  "version": "2.0.1",
                  "code": "de",
                  "display": "German"
                }
              ]
            }
          }
        ]
      }
    },
    {
      "fullUrl": "https://gematik.de/fhir/epa-medication/List/6b2ae15e-d71f-4bc8-9892-5db8bb16a209",
      "resource": {
        "resourceType": "List",
        "id": "6b2ae15e-d71f-4bc8-9892-5db8bb16a209",
        "meta": {
          "versionId": "2",
          "lastUpdated": "2023-03-16T09:17:00+01:00",
          "profile": [
            "https://gematik.de/fhir/epa-medication/StructureDefinition/epa-plan-observation-list"
          ]
        },
        "status": "current",
        "mode": "snapshot",
        "subject": {
          "identifier": {
            "type": {
              "coding": [
                {
                  "system": "http://fhir.de/CodeSystem/identifier-type-de-basis",
                  "code": "KVZ10",
                  "display": "Krankenversichertennummer"
                }
              ]
            },
            "system": "http://fhir.de/sid/gkv/kvid-10",
            "value": "Z888888888"
          }
        },
        "code": {
          "coding": [
            {
              "code": "363787002",
              "system": "http://snomed.info/sct",
              "version": "http://snomed.info/sct/11000274103/version/20240515",
              "display": "Observable entity (observable entity)"
            }
          ]
        },
        "date": "2023-03-16T09:17:00+01:00",
        "entry": [
          {
            "item": {
              "reference": "https://gematik.de/fhir/epa-medication/Observation/bb284681-dd3e-4685-a889-d6a16b68f481/_history/1"
            }
          },
          {
            "item": {
              "reference": "https://gematik.de/fhir/epa-medication/Observation/af39215c-9f2a-49c1-af20-0be78da88ba4/_history/1"
            }
          },
          {
            "item": {
              "reference": "https://gematik.de/fhir/epa-medication/Observation/9b9ada45-a7b7-47d7-a1a0-a1157eacda41/_history/1"
            }
          },
          {
            "item": {
              "reference": "https://gematik.de/fhir/epa-medication/Observation/b99b9018-afbf-413b-8248-4c05ebab2cba/_history/1"
            }
          }
        ]
      }
    },
    {
      "fullUrl": "https://gematik.de/fhir/epa-medication/Observation/bb284681-dd3e-4685-a889-d6a16b68f481",
      "resource": {
        "resourceType": "Observation",
        "id": "bb284681-dd3e-4685-a889-d6a16b68f481",
        "meta": {
          "versionId": "1",
          "lastUpdated": "2013-07-15T08:30:00+01:00",
          "profile": [
            "https://gematik.de/fhir/epa-medication/StructureDefinition/epa-observation-body-height-amts"
          ]
        },
        "category": [
          {
            "coding": [
              {
                "system": "http://terminology.hl7.org/CodeSystem/observation-category",
                "code": "vital-signs"
              }
            ]
          }
        ],
        "code": {
          "coding": [
            {
              "system": "http://loinc.org",
              "code": "8302-2",
              "version": "2.77",
              "display": "Body height"
            },
            {
              "system": "http://snomed.info/sct",
              "code": "1153637007",
              "version": "http://snomed.info/sct/11000274103/version/20240515",
              "display": "Body height (observable entity)"
            }
          ]
        },
        "subject": {
          "identifier": {
            "type": {
              "coding": [
                {
                  "system": "http://fhir.de/CodeSystem/identifier-type-de-basis",
                  "code": "KVZ10",
                  "display": "Krankenversichertennummer"
                }
              ]
            },
            "system": "http://fhir.de/sid/gkv/kvid-10",
            "value": "Z888888888"
          }
        },
        "valueQuantity": {
          "system": "http://unitsofmeasure.org",
          "value": 1.64,
          "unit": "m",
          "code": "m"
        },
        "status": "final",
        "effectiveDateTime": "2013-07-15"
      }
    },
    {
      "fullUrl": "https://gematik.de/fhir/epa-medication/Observation/af39215c-9f2a-49c1-af20-0be78da88ba4",
      "resource": {
        "resourceType": "Observation",
        "id": "af39215c-9f2a-49c1-af20-0be78da88ba4",
        "meta": {
          "versionId": "1",
          "lastUpdated": "2013-07-15T08:30:00+01:00",
          "profile": [
            "https://gematik.de/fhir/epa-medication/StructureDefinition/epa-observation-body-weight-amts"
          ]
        },
        "category": [
          {
            "coding": [
              {
                "system": "http://terminology.hl7.org/CodeSystem/observation-category",
                "code": "vital-signs"
              }
            ]
          }
        ],
        "code": {
          "coding": [
            {
              "system": "http://loinc.org",
              "code": "29463-7",
              "version": "2.77",
              "display": "Body weight"
            },
            {
              "system": "http://snomed.info/sct",
              "code": "27113001",
              "version": "http://snomed.info/sct/11000274103/version/20240515",
              "display": "Body weight (observable entity)"
            }
          ]
        },
        "subject": {
          "identifier": {
            "type": {
              "coding": [
                {
                  "system": "http://fhir.de/CodeSystem/identifier-type-de-basis",
                  "code": "KVZ10",
                  "display": "Krankenversichertennummer"
                }
              ]
            },
            "system": "http://fhir.de/sid/gkv/kvid-10",
            "value": "Z888888888"
          }
        },
        "valueQuantity": {
          "system": "http://unitsofmeasure.org",
          "value": 54,
          "unit": "kg",
          "code": "kg"
        },
        "status": "final",
        "effectiveDateTime": "2013-07-15"
      }
    },
    {
      "fullUrl": "https://gematik.de/fhir/epa-medication/Observation/9b9ada45-a7b7-47d7-a1a0-a1157eacda41",
      "resource": {
        "resourceType": "Observation",
        "id": "9b9ada45-a7b7-47d7-a1a0-a1157eacda41",
        "meta": {
          "versionId": "1",
          "lastUpdated": "2023-03-16T09:17:00+01:00",
          "profile": [
            "https://gematik.de/fhir/epa-medication/StructureDefinition/epa-observation-gfr-amts"
          ]
        },
        "code": {
          "coding": [
            {
              "system": "http://loinc.org",
              "code": "50044-7",
              "version": "2.77",
              "display": "Glomerular filtration rate/1.73 sq M.predicted among females [Volume Rate/Area] in Serum, Plasma or Blood by Creatinine-based formula (MDRD)"
            }
          ]
        },
        "subject": {
          "identifier": {
            "type": {
              "coding": [
                {
                  "system": "http://fhir.de/CodeSystem/identifier-type-de-basis",
                  "code": "KVZ10",
                  "display": "Krankenversichertennummer"
                }
              ]
            },
            "system": "http://fhir.de/sid/gkv/kvid-10",
            "value": "Z888888888"
          }
        },
        "status": "final",
        "effectiveDateTime": "2023-03-10",
        "valueQuantity": {
          "value": 63,
          "unit": "milliliter per minute per 1.73 square meter",
          "system": "http://unitsofmeasure.org",
          "code": "mL/min/{1.73_m2}"
        }
      }
    },
    {
      "fullUrl": "https://gematik.de/fhir/epa-medication/Observation/b99b9018-afbf-413b-8248-4c05ebab2cba",
      "resource": {
        "resourceType": "Observation",
        "id": "b99b9018-afbf-413b-8248-4c05ebab2cba",
        "meta": {
          "versionId": "1",
          "lastUpdated": "2023-03-16T09:17:00+01:00",
          "profile": [
            "https://gematik.de/fhir/epa-medication/StructureDefinition/epa-observation-creatinine-amts"
          ]
        },
        "code": {
          "coding": [
            {
              "system": "http://loinc.org",
              "code": "77140-2",
              "version": "2.77",
              "display": "Creatinine [Moles/volume] in Serum, Plasma or Blood"
            }
          ]
        },
        "subject": {
          "identifier": {
            "type": {
              "coding": [
                {
                  "system": "http://fhir.de/CodeSystem/identifier-type-de-basis",
                  "code": "KVZ10",
                  "display": "Krankenversichertennummer"
                }
              ]
            },
            "system": "http://fhir.de/sid/gkv/kvid-10",
            "value": "Z888888888"
          }
        },
        "valueQuantity": {
          "system": "http://unitsofmeasure.org",
          "value": 1.2,
          "unit": "mg/dl",
          "code": "mg/dL"
        },
        "status": "final",
        "effectiveDateTime": "2023-03-10"
      }
    },
    {
      "fullUrl": "https://gematik.de/fhir/epa-medication/List/db7e07bd-2505-46a9-a714-fa069f86d1a2",
      "resource": {
        "resourceType": "List",
        "id": "db7e07bd-2505-46a9-a714-fa069f86d1a2",
        "meta": {
          "versionId": "2",
          "lastUpdated": "2023-03-16T09:17:00+01:00",
          "profile": [
            "https://gematik.de/fhir/epa-medication/StructureDefinition/epa-plan-medication-statement-list"
          ]
        },
        "status": "current",
        "mode": "snapshot",
        "subject": {
          "identifier": {
            "type": {
              "coding": [
                {
                  "system": "http://fhir.de/CodeSystem/identifier-type-de-basis",
                  "code": "KVZ10",
                  "display": "Krankenversichertennummer"
                }
              ]
            },
            "system": "http://fhir.de/sid/gkv/kvid-10",
            "value": "Z888888888"
          }
        },
        "code": {
          "coding": [
            {
              "code": "medications",
              "system": "http://terminology.hl7.org/CodeSystem/list-example-use-codes",
              "display": "Medication List"
            }
          ]
        },
        "date": "2023-03-16T09:17:00+01:00",
        "entry": [
          {
            "item": {
              "reference": "https://gematik.de/fhir/epa-medication/MedicationStatement/29a30030-e5a2-4ee4-a206-aac210277c74/_history/2"
            }
          },
          {
            "item": {
              "reference": "https://gematik.de/fhir/epa-medication/MedicationStatement/ab5cfb86-93f6-4968-9394-51b4da619ac6/_history/1"
            }
          },
          {
            "item": {
              "reference": "https://gematik.de/fhir/epa-medication/MedicationStatement/5bbb22e6-de02-4411-ad6f-9ffc110b7807/_history/1"
            }
          },
          {
            "item": {
              "reference": "https://gematik.de/fhir/epa-medication/MedicationStatement/c1cb7634-2377-4a6e-b1fd-eeef185e93ea/_history/1"
            }
          }
        ]
      }
    },
    {
      "fullUrl": "https://gematik.de/fhir/epa-medication/MedicationStatement/29a30030-e5a2-4ee4-a206-aac210277c74",
      "resource": {
        "resourceType": "MedicationStatement",
        "id": "29a30030-e5a2-4ee4-a206-aac210277c74",
        "meta": {
          "versionId": "2",
          "lastUpdated": "2023-03-16T09:17:00+01:00",
          "profile": [
            "https://gematik.de/fhir/epa-medication/StructureDefinition/epa-medication-statement-planning"
          ]
        },
        "subject": {
          "identifier": {
            "type": {
              "coding": [
                {
                  "system": "http://fhir.de/CodeSystem/identifier-type-de-basis",
                  "code": "KVZ10",
                  "display": "Krankenversichertennummer"
                }
              ]
            },
            "system": "http://fhir.de/sid/gkv/kvid-10",
            "value": "Z888888888"
          }
        },
        "reasonCode": [
          {
            "coding": [
              {
                "system": "http://fhir.de/CodeSystem/bfarm/icd-10-gm",
                "code": "I48.0",
                "version": "2023",
                "display": "Vorhofflimmern, paroxysmal"
              }
            ],
            "text": "Vorhofflimmern"
          }
        ],
        "status": "active",
        "medicationReference": {
          "reference": "https://gematik.de/fhir/epa-medication/Medication/7acbcb45-15ad-4ddc-8f6a-719874a40052/_history/1"
        },
        "effectivePeriod": {
          "start": "2017-06-15"
        },
        "dosage": [
          {
            "route": {
              "coding": [
                {
                  "code": "20053000",
                  "system": "http://standardterms.edqm.eu",
                  "display": "Oral use"
                }
              ]
            },
            "doseAndRate": [
              {
                "doseQuantity": {
                  "value": 0.5,
                  "code": "1",
                  "system": "https://fhir.kbv.de/CodeSystem/KBV_CS_SFHIR_BMP_DOSIEREINHEIT",
                  "unit": "Stück"
                }
              }
            ],
            "timing": {
              "repeat": {
                "boundsPeriod": {
                  "start": "2023-03-12"
                },
                "frequency": 1,
                "period": 1,
                "periodUnit": "d",
                "when": [
                  "MORN"
                ]
              }
            },
            "asNeededBoolean": false
          }
        ]
      }
    },
    {
      "fullUrl": "https://gematik.de/fhir/epa-medication/Medication/7acbcb45-15ad-4ddc-8f6a-719874a40052",
      "resource": {
        "resourceType": "Medication",
        "id": "7acbcb45-15ad-4ddc-8f6a-719874a40052",
        "meta": {
          "versionId": "1",
          "lastUpdated": "2017-06-15T14:30:00+01:00",
          "profile": [
            "https://gematik.de/fhir/epa-medication/StructureDefinition/epa-medication-planning"
          ]
        },
        "code": {
          "coding": [
            {
              "system": "http://fhir.de/CodeSystem/ifa/pzn",
              "code": "06866143",
              "display": "Bisoprolol-ratiopharm 10 mg Tabletten"
            }
          ]
        },
        "form": {
          "coding": [
            {
              "system": "https://fhir.kbv.de/CodeSystem/KBV_CS_SFHIR_KBV_DARREICHUNGSFORM",
              "code": "TAB",
              "version": "1.03",
              "display": "Tabletten"
            }
          ]
        },
        "status": "active",
        "amount": {
          "numerator": {
            "value": 100,
            "code": "1",
            "system": "https://fhir.kbv.de/CodeSystem/KBV_CS_SFHIR_BMP_DOSIEREINHEIT",
            "unit": "Stück"
          },
          "denominator": {
            "value": 1,
            "code": "1681000175101",
            "system": "http://snomed.info/sct",
            "unit": "Package - unit of product usage (qualifier value)"
          }
        },
        "ingredient": [
          {
            "itemCodeableConcept": {
              "text": "Bisoprolol"
            },
            "strength": {
              "numerator": {
                "value": 10,
                "code": "mg",
                "system": "http://unitsofmeasure.org",
                "unit": "milligramm"
              },
              "denominator": {
                "value": 1,
                "code": "1",
                "system": "https://fhir.kbv.de/CodeSystem/KBV_CS_SFHIR_BMP_DOSIEREINHEIT",
                "unit": "Stück"
              }
            }
          }
        ]
      }
    },
    {
      "fullUrl": "https://gematik.de/fhir/epa-medication/MedicationStatement/ab5cfb86-93f6-4968-9394-51b4da619ac6",
      "resource": {
        "resourceType": "MedicationStatement",
        "id": "ab5cfb86-93f6-4968-9394-51b4da619ac6",
        "meta": {
          "versionId": "1",
          "lastUpdated": "2017-06-15T14:30:00+01:00",
          "profile": [
            "https://gematik.de/fhir/epa-medication/StructureDefinition/epa-medication-statement-planning"
          ]
        },
        "subject": {
          "identifier": {
            "type": {
              "coding": [
                {
                  "system": "http://fhir.de/CodeSystem/identifier-type-de-basis",
                  "code": "KVZ10",
                  "display": "Krankenversichertennummer"
                }
              ]
            },
            "system": "http://fhir.de/sid/gkv/kvid-10",
            "value": "Z888888888"
          }
        },
        "reasonCode": [
          {
            "coding": [
              {
                "system": "http://fhir.de/CodeSystem/bfarm/icd-10-gm",
                "code": "I48.0",
                "version": "2023",
                "display": "Vorhofflimmern, paroxysmal"
              }
            ],
            "text": "Blutverdünnung"
          }
        ],
        "status": "active",
        "medicationReference": {
          "reference": "https://gematik.de/fhir/epa-medication/Medication/4fd9696f-6012-4037-b5dd-bc99330b4c86/_history/1"
        },
        "effectivePeriod": {
          "start": "2017-06-15"
        },
        "dosage": [
          {
            "route": {
              "coding": [
                {
                  "code": "20053000",
                  "system": "http://standardterms.edqm.eu",
                  "display": "Oral use"
                }
              ]
            },
            "doseAndRate": [
              {
                "doseQuantity": {
                  "value": 1,
                  "code": "1",
                  "system": "https://fhir.kbv.de/CodeSystem/KBV_CS_SFHIR_BMP_DOSIEREINHEIT",
                  "unit": "Stück"
                }
              }
            ],
            "timing": {
              "repeat": {
                "boundsPeriod": {
                  "start": "2017-06-15"
                },
                "frequency": 1,
                "period": 1,
                "periodUnit": "d",
                "when": [
                  "MORN"
                ]
              }
            },
            "asNeededBoolean": false
          },
          {
            "route": {
              "coding": [
                {
                  "code": "20053000",
                  "system": "http://standardterms.edqm.eu",
                  "display": "Oral use"
                }
              ]
            },
            "doseAndRate": [
              {
                "doseQuantity": {
                  "value": 1,
                  "code": "1",
                  "system": "https://fhir.kbv.de/CodeSystem/KBV_CS_SFHIR_BMP_DOSIEREINHEIT",
                  "unit": "Stück"
                }
              }
            ],
            "timing": {
              "repeat": {
                "boundsPeriod": {
                  "start": "2017-06-15"
                },
                "frequency": 1,
                "period": 1,
                "periodUnit": "d",
                "when": [
                  "EVE"
                ]
              }
            },
            "asNeededBoolean": false
          }
        ]
      }
    },
    {
      "fullUrl": "https://gematik.de/fhir/epa-medication/Medication/4fd9696f-6012-4037-b5dd-bc99330b4c86",
      "resource": {
        "resourceType": "Medication",
        "id": "4fd9696f-6012-4037-b5dd-bc99330b4c86",
        "meta": {
          "versionId": "1",
          "lastUpdated": "2017-06-15T14:30:00+01:00",
          "profile": [
            "https://gematik.de/fhir/epa-medication/StructureDefinition/epa-medication-planning"
          ]
        },
        "code": {
          "coding": [
            {
              "system": "http://fhir.de/CodeSystem/ifa/pzn",
              "code": "07089606",
              "display": "Xarelto 20mg Filmtabletten"
            }
          ]
        },
        "form": {
          "coding": [
            {
              "system": "https://fhir.kbv.de/CodeSystem/KBV_CS_SFHIR_KBV_DARREICHUNGSFORM",
              "code": "TAB",
              "version": "1.03",
              "display": "Tabletten"
            }
          ]
        },
        "status": "active",
        "amount": {
          "numerator": {
            "value": 98,
            "code": "1",
            "system": "https://fhir.kbv.de/CodeSystem/KBV_CS_SFHIR_BMP_DOSIEREINHEIT",
            "unit": "Stück"
          },
          "denominator": {
            "value": 1,
            "code": "1681000175101",
            "system": "http://snomed.info/sct",
            "unit": "Package - unit of product usage (qualifier value)"
          }
        },
        "ingredient": [
          {
            "itemCodeableConcept": {
              "text": "Rivaroxaban"
            },
            "strength": {
              "numerator": {
                "value": 20,
                "code": "mg",
                "system": "http://unitsofmeasure.org",
                "unit": "milligramm"
              },
              "denominator": {
                "value": 1,
                "code": "1",
                "system": "https://fhir.kbv.de/CodeSystem/KBV_CS_SFHIR_BMP_DOSIEREINHEIT",
                "unit": "Stück"
              }
            }
          }
        ]
      }
    },
    {
      "fullUrl": "https://gematik.de/fhir/epa-medication/MedicationStatement/5bbb22e6-de02-4411-ad6f-9ffc110b7807",
      "resource": {
        "resourceType": "MedicationStatement",
        "id": "5bbb22e6-de02-4411-ad6f-9ffc110b7807",
        "meta": {
          "versionId": "1",
          "lastUpdated": "2013-07-15T08:30:00+01:00",
          "profile": [
            "https://gematik.de/fhir/epa-medication/StructureDefinition/epa-medication-statement-planning"
          ]
        },
        "subject": {
          "identifier": {
            "type": {
              "coding": [
                {
                  "system": "http://fhir.de/CodeSystem/identifier-type-de-basis",
                  "code": "KVZ10",
                  "display": "Krankenversichertennummer"
                }
              ]
            },
            "system": "http://fhir.de/sid/gkv/kvid-10",
            "value": "Z888888888"
          }
        },
        "reasonCode": [
          {
            "coding": [
              {
                "system": "http://fhir.de/CodeSystem/bfarm/icd-10-gm",
                "code": "E78.0",
                "version": "2023",
                "display": "Reine Hypercholesterinämie"
              }
            ],
            "text": "Blutfette"
          }
        ],
        "status": "active",
        "medicationReference": {
          "reference": "https://gematik.de/fhir/epa-medication/Medication/9eeb0ea8-1ebc-4e71-853e-82ee0f3131bb/_history/1"
        },
        "effectivePeriod": {
          "start": "2013-07-15"
        },
        "dosage": [
          {
            "route": {
              "coding": [
                {
                  "code": "20053000",
                  "system": "http://standardterms.edqm.eu",
                  "display": "Oral use"
                }
              ]
            },
            "doseAndRate": [
              {
                "doseQuantity": {
                  "value": 1,
                  "code": "1",
                  "system": "https://fhir.kbv.de/CodeSystem/KBV_CS_SFHIR_BMP_DOSIEREINHEIT",
                  "unit": "Stück"
                }
              }
            ],
            "timing": {
              "repeat": {
                "boundsPeriod": {
                  "start": "2013-07-15"
                },
                "frequency": 1,
                "period": 1,
                "periodUnit": "d",
                "when": [
                  "EVE"
                ]
              }
            },
            "asNeededBoolean": false
          }
        ]
      }
    },
    {
      "fullUrl": "https://gematik.de/fhir/epa-medication/Medication/9eeb0ea8-1ebc-4e71-853e-82ee0f3131bb",
      "resource": {
        "resourceType": "Medication",
        "id": "9eeb0ea8-1ebc-4e71-853e-82ee0f3131bb",
        "meta": {
          "versionId": "1",
          "lastUpdated": "2013-07-15T08:30:00+01:00",
          "profile": [
            "https://gematik.de/fhir/epa-medication/StructureDefinition/epa-medication-planning"
          ]
        },
        "code": {
          "coding": [
            {
              "system": "http://fhir.de/CodeSystem/ifa/pzn",
              "code": "01970491",
              "display": "Simvastatin 1A Pharma 10 mg Filmtabletten"
            }
          ]
        },
        "form": {
          "coding": [
            {
              "system": "https://fhir.kbv.de/CodeSystem/KBV_CS_SFHIR_KBV_DARREICHUNGSFORM",
              "code": "TAB",
              "version": "1.03",
              "display": "Tabletten"
            }
          ]
        },
        "status": "active",
        "amount": {
          "numerator": {
            "value": 100,
            "code": "1",
            "system": "https://fhir.kbv.de/CodeSystem/KBV_CS_SFHIR_BMP_DOSIEREINHEIT",
            "unit": "Stück"
          },
          "denominator": {
            "value": 1,
            "code": "1681000175101",
            "system": "http://snomed.info/sct",
            "unit": "Package - unit of product usage (qualifier value)"
          }
        },
        "ingredient": [
          {
            "itemCodeableConcept": {
              "text": "Simvastatin"
            },
            "strength": {
              "numerator": {
                "value": 10,
                "code": "mg",
                "system": "http://unitsofmeasure.org",
                "unit": "milligramm"
              },
              "denominator": {
                "value": 1,
                "code": "1",
                "system": "https://fhir.kbv.de/CodeSystem/KBV_CS_SFHIR_BMP_DOSIEREINHEIT",
                "unit": "Stück"
              }
            }
          }
        ]
      }
    },
    {
      "fullUrl": "https://gematik.de/fhir/epa-medication/MedicationStatement/c1cb7634-2377-4a6e-b1fd-eeef185e93ea",
      "resource": {
        "resourceType": "MedicationStatement",
        "id": "c1cb7634-2377-4a6e-b1fd-eeef185e93ea",
        "meta": {
          "versionId": "1",
          "lastUpdated": "2023-03-16T09:17:00+01:00",
          "profile": [
            "https://gematik.de/fhir/epa-medication/StructureDefinition/epa-medication-statement-planning"
          ]
        },
        "subject": {
          "identifier": {
            "type": {
              "coding": [
                {
                  "system": "http://fhir.de/CodeSystem/identifier-type-de-basis",
                  "code": "KVZ10",
                  "display": "Krankenversichertennummer"
                }
              ]
            },
            "system": "http://fhir.de/sid/gkv/kvid-10",
            "value": "Z888888888"
          }
        },
        "reasonCode": [
          {
            "coding": [
              {
                "system": "http://fhir.de/CodeSystem/bfarm/icd-10-gm",
                "code": "N39.0",
                "version": "2023",
                "display": "Harnwegsinfektion, Lokalisation nicht näher bezeichnet"
              }
            ],
            "text": "Antibiose"
          }
        ],
        "status": "active",
        "medicationReference": {
          "reference": "https://gematik.de/fhir/epa-medication/Medication/0b009da6-b1ac-4d17-b5d6-12a0fbb3ff65/_history/1"
        },
        "effectivePeriod": {
          "start": "2023-03-16",
          "end": "2023-03-21"
        },
        "dosage": [
          {
            "patientInstruction": "bis einschließlich 21.03.2023",
            "route": {
              "coding": [
                {
                  "code": "20053000",
                  "system": "http://standardterms.edqm.eu",
                  "display": "Oral use"
                }
              ]
            },
            "doseAndRate": [
              {
                "doseQuantity": {
                  "value": 1,
                  "code": "1",
                  "system": "https://fhir.kbv.de/CodeSystem/KBV_CS_SFHIR_BMP_DOSIEREINHEIT",
                  "unit": "Stück"
                }
              }
            ],
            "timing": {
              "repeat": {
                "boundsPeriod": {
                  "start": "2023-03-16",
                  "end": "2023-03-21"
                },
                "frequency": 1,
                "period": 1,
                "periodUnit": "d",
                "when": [
                  "MORN"
                ]
              }
            },
            "asNeededBoolean": false
          },
          {
            "patientInstruction": "bis einschließlich 21.03.2023",
            "route": {
              "coding": [
                {
                  "code": "20053000",
                  "system": "http://standardterms.edqm.eu",
                  "display": "Oral use"
                }
              ]
            },
            "doseAndRate": [
              {
                "doseQuantity": {
                  "value": 1,
                  "code": "1",
                  "system": "https://fhir.kbv.de/CodeSystem/KBV_CS_SFHIR_BMP_DOSIEREINHEIT",
                  "unit": "Stück"
                }
              }
            ],
            "timing": {
              "repeat": {
                "boundsPeriod": {
                  "start": "2023-03-16",
                  "end": "2023-03-21"
                },
                "when": [
                  "EVE"
                ],
                "frequency": 1,
                "period": 1,
                "periodUnit": "d"
              }
            },
            "asNeededBoolean": false
          }
        ],
        "note": [
          {
            "authorReference": {
              "reference": "https://gematik.de/fhir/epa-medication/Practitioner/8f3a43e4-ea21-4324-bcbd-0cb4e23748d1/_history/1"
            },
            "time": "2023-03-16",
            "text": "bei Entlassung am 16.03.2023 erfogte eine Umstellung der bei stationärer Aufnahme am 13.03.2023 begonnenen i.v. Antibiose mit Unacid auf orale Antibiose"
          }
        ]
      }
    },
    {
      "fullUrl": "https://gematik.de/fhir/epa-medication/Medication/0b009da6-b1ac-4d17-b5d6-12a0fbb3ff65",
      "resource": {
        "resourceType": "Medication",
        "id": "0b009da6-b1ac-4d17-b5d6-12a0fbb3ff65",
        "meta": {
          "versionId": "1",
          "lastUpdated": "2023-03-16T09:17:00+01:00",
          "profile": [
            "https://gematik.de/fhir/epa-medication/StructureDefinition/epa-medication-planning"
          ]
        },
        "code": {
          "coding": [
            {
              "system": "http://fhir.de/CodeSystem/ifa/pzn",
              "code": "8837281",
              "display": "Sultamicillin-ratiopharm 375mg Filmtabletten"
            }
          ]
        },
        "form": {
          "coding": [
            {
              "system": "https://fhir.kbv.de/CodeSystem/KBV_CS_SFHIR_KBV_DARREICHUNGSFORM",
              "code": "TAB",
              "version": "1.03",
              "display": "Tabletten"
            }
          ]
        },
        "status": "active",
        "amount": {
          "numerator": {
            "value": 10,
            "code": "1",
            "system": "https://fhir.kbv.de/CodeSystem/KBV_CS_SFHIR_BMP_DOSIEREINHEIT",
            "unit": "Stück"
          },
          "denominator": {
            "value": 1,
            "code": "1681000175101",
            "system": "http://snomed.info/sct",
            "unit": "Package - unit of product usage (qualifier value)"
          }
        },
        "ingredient": [
          {
            "itemCodeableConcept": {
              "text": "Sultamicillin"
            },
            "strength": {
              "numerator": {
                "value": 375,
                "code": "mg",
                "system": "http://unitsofmeasure.org",
                "unit": "milligramm"
              },
              "denominator": {
                "value": 1,
                "code": "1",
                "system": "https://fhir.kbv.de/CodeSystem/KBV_CS_SFHIR_BMP_DOSIEREINHEIT",
                "unit": "Stück"
              }
            }
          }
        ]
      }
    },
    {
      "fullUrl": "https://gematik.de/fhir/epa-medication/Practitioner/8f3a43e4-ea21-4324-bcbd-0cb4e23748d1",
      "resource": {
        "resourceType": "Practitioner",
        "id": "8f3a43e4-ea21-4324-bcbd-0cb4e23748d1",
        "meta": {
          "tag": [
            {
              "system": "https://gematik.de/fhir/directory/CodeSystem/Origin"
            }
          ],
          "versionId": "1",
          "lastUpdated": "2023-02-03T11:30:00+01:00",
          "profile": [
            "https://gematik.de/fhir/directory/StructureDefinition/PractitionerDirectory"
          ]
        },
        "identifier": [
          {
            "type": {
              "coding": [
                {
                  "system": "http://terminology.hl7.org/CodeSystem/v2-0203",
                  "code": "PRN",
                  "display": "Provider number"
                }
              ]
            },
            "system": "https://gematik.de/fhir/sid/telematik-id",
            "value": "T1234244355555"
          }
        ],
        "name": [
          {
            "use": "official",
            "text": "Dr. med. Michael Müller",
            "family": "Müller",
            "given": [
              "Michael"
            ],
            "prefix": [
              "Dr. med."
            ]
          }
        ]
      }
    },
    {
      "fullUrl": "https://gematik.de/fhir/epa-medication/Provenance/5c083fb5-7880-4be9-bda5-b84388cece6d",
      "resource": {
        "resourceType": "Provenance",
        "id": "5c083fb5-7880-4be9-bda5-b84388cece6d",
        "meta": {
          "versionId": "1",
          "lastUpdated": "2017-06-15T14:30:00+01:00",
          "profile": [
            "https://gematik.de/fhir/epa/StructureDefinition/epa-provenance"
          ]
        },
        "target": [
          {
            "reference": "https://gematik.de/fhir/epa-medication/List/9c3b50f7-a78c-4f90-aa81-c8568b8b632b/_history/1"
          }
        ],
        "occurredDateTime": "2017-06-15T14:30:00+01:00",
        "recorded": "2017-06-15T14:30:00+01:00",
        "activity": {
          "coding": [
            {
              "code": "CREATE",
              "system": "http://terminology.hl7.org/CodeSystem/v3-DataOperation",
              "version": "2018-08-12",
              "display": "create"
            }
          ]
        },
        "agent": [
          {
            "type": {
              "coding": [
                {
                  "code": "author",
                  "system": "http://terminology.hl7.org/CodeSystem/provenance-participant-type",
                  "version": "4.0.1",
                  "display": "Author"
                }
              ]
            },
            "who": {
              "reference": "https://gematik.de/fhir/epa-medication/PractitionerRole/363e6227-9487-4a69-8b19-0597a767a5a9"
            }
          }
        ]
      }
    },
    {
      "fullUrl": "https://gematik.de/fhir/epa-medication/Provenance/4326beb1-4986-41c4-8bca-74a7e3290d6a",
      "resource": {
        "resourceType": "Provenance",
        "id": "4326beb1-4986-41c4-8bca-74a7e3290d6a",
        "meta": {
          "versionId": "1",
          "lastUpdated": "2017-06-15T14:30:00+01:00",
          "profile": [
            "https://gematik.de/fhir/epa/StructureDefinition/epa-provenance"
          ]
        },
        "target": [
          {
            "reference": "https://gematik.de/fhir/epa-medication/Medication/7acbcb45-15ad-4ddc-8f6a-719874a40052/_history/1"
          }
        ],
        "occurredDateTime": "2017-06-15T14:30:00+01:00",
        "recorded": "2017-06-15T14:30:00+01:00",
        "activity": {
          "coding": [
            {
              "code": "CREATE",
              "system": "http://terminology.hl7.org/CodeSystem/v3-DataOperation",
              "version": "2018-08-12",
              "display": "create"
            }
          ]
        },
        "agent": [
          {
            "type": {
              "coding": [
                {
                  "code": "author",
                  "system": "http://terminology.hl7.org/CodeSystem/provenance-participant-type",
                  "version": "4.0.1",
                  "display": "Author"
                }
              ]
            },
            "who": {
              "reference": "https://gematik.de/fhir/epa-medication/PractitionerRole/363e6227-9487-4a69-8b19-0597a767a5a9"
            }
          }
        ]
      }
    },
    {
      "fullUrl": "https://gematik.de/fhir/epa-medication/Provenance/9159e50f-c079-4144-8aab-6dc8ce7867b6",
      "resource": {
        "resourceType": "Provenance",
        "id": "9159e50f-c079-4144-8aab-6dc8ce7867b6",
        "meta": {
          "versionId": "1",
          "lastUpdated": "2017-06-15T14:30:00+01:00",
          "profile": [
            "https://gematik.de/fhir/epa/StructureDefinition/epa-provenance"
          ]
        },
        "target": [
          {
            "reference": "https://gematik.de/fhir/epa-medication/Medication/4fd9696f-6012-4037-b5dd-bc99330b4c86/_history/1"
          }
        ],
        "occurredDateTime": "2017-06-15T14:30:00+01:00",
        "recorded": "2017-06-15T14:30:00+01:00",
        "activity": {
          "coding": [
            {
              "code": "CREATE",
              "system": "http://terminology.hl7.org/CodeSystem/v3-DataOperation",
              "version": "2018-08-12",
              "display": "create"
            }
          ]
        },
        "agent": [
          {
            "type": {
              "coding": [
                {
                  "code": "author",
                  "system": "http://terminology.hl7.org/CodeSystem/provenance-participant-type",
                  "version": "4.0.1",
                  "display": "Author"
                }
              ]
            },
            "who": {
              "reference": "https://gematik.de/fhir/epa-medication/PractitionerRole/363e6227-9487-4a69-8b19-0597a767a5a9"
            }
          }
        ]
      }
    },
    {
      "fullUrl": "https://gematik.de/fhir/epa-medication/Provenance/4b1e2dd3-0550-41d1-bf6c-392f4090e73a",
      "resource": {
        "resourceType": "Provenance",
        "id": "4b1e2dd3-0550-41d1-bf6c-392f4090e73a",
        "meta": {
          "versionId": "1",
          "lastUpdated": "2013-07-15T08:30:00+01:00",
          "profile": [
            "https://gematik.de/fhir/epa/StructureDefinition/epa-provenance"
          ]
        },
        "target": [
          {
            "reference": "https://gematik.de/fhir/epa-medication/Medication/9eeb0ea8-1ebc-4e71-853e-82ee0f3131bb/_history/1"
          }
        ],
        "occurredDateTime": "2013-07-15T08:30:00+01:00",
        "recorded": "2013-07-15T08:30:00+01:00",
        "activity": {
          "coding": [
            {
              "code": "CREATE",
              "system": "http://terminology.hl7.org/CodeSystem/v3-DataOperation",
              "version": "2018-08-12",
              "display": "create"
            }
          ]
        },
        "agent": [
          {
            "type": {
              "coding": [
                {
                  "code": "author",
                  "system": "http://terminology.hl7.org/CodeSystem/provenance-participant-type",
                  "version": "4.0.1",
                  "display": "Author"
                }
              ]
            },
            "who": {
              "reference": "https://gematik.de/fhir/epa-medication/PractitionerRole/363e6227-9487-4a69-8b19-0597a767a5a9"
            }
          }
        ]
      }
    },
    {
      "fullUrl": "https://gematik.de/fhir/epa-medication/Provenance/f101d993-a02d-440f-be8e-cb939eeb6f2f",
      "resource": {
        "resourceType": "Provenance",
        "id": "f101d993-a02d-440f-be8e-cb939eeb6f2f",
        "meta": {
          "versionId": "1",
          "lastUpdated": "2023-03-16T09:17:00+01:00",
          "profile": [
            "https://gematik.de/fhir/epa/StructureDefinition/epa-provenance"
          ]
        },
        "target": [
          {
            "reference": "https://gematik.de/fhir/epa-medication/Medication/0b009da6-b1ac-4d17-b5d6-12a0fbb3ff65/_history/1"
          }
        ],
        "occurredDateTime": "2023-03-16T09:17:00+01:00",
        "recorded": "2023-03-16T09:17:00+01:00",
        "activity": {
          "coding": [
            {
              "code": "CREATE",
              "system": "http://terminology.hl7.org/CodeSystem/v3-DataOperation",
              "version": "2018-08-12",
              "display": "create"
            }
          ]
        },
        "agent": [
          {
            "type": {
              "coding": [
                {
                  "code": "author",
                  "system": "http://terminology.hl7.org/CodeSystem/provenance-participant-type",
                  "version": "4.0.1",
                  "display": "Author"
                }
              ]
            },
            "who": {
              "reference": "https://gematik.de/fhir/epa-medication/PractitionerRole/1c2d8b31-07ef-43a3-b341-1457f3ca4071"
            }
          }
        ]
      }
    },
    {
      "fullUrl": "https://gematik.de/fhir/epa-medication/PractitionerRole/1c2d8b31-07ef-43a3-b341-1457f3ca4071",
      "resource": {
        "resourceType": "PractitionerRole",
        "id": "1c2d8b31-07ef-43a3-b341-1457f3ca4071",
        "meta": {
          "profile": [
            "https://gematik.de/fhir/epa/StructureDefinition/epa-practitioner-role"
          ]
        },
        "practitioner": {
          "reference": "https://gematik.de/fhir/epa-medication/Practitioner/8f3a43e4-ea21-4324-bcbd-0cb4e23748d1"
        },
        "organization": {
          "reference": "https://gematik.de/fhir/epa-medication/Organization/88d8eb73-da4a-452a-bfaa-a05df0976171"
        },
        "code": [
          {
            "coding": [
              {
                "code": "AA",
                "system": "https://gematik.de/fhir/terminology/CodeSystem/epa-role-care-cs",
                "version": "1.0.1",
                "display": "Assistenzärztin/-arzt"
              }
            ]
          }
        ],
        "specialty": [
          {
            "coding": [
              {
                "code": "02",
                "system": "https://fhir.kbv.de/CodeSystem/KBV_CS_SFHIR_BAR2_ARZTNRFACHGRUPPE",
                "version": "1.03",
                "display": "hausärztliche Praktische Ärztin/Praktischer Arzt/Ärztin ohne Facharzt-Weiterbildung/Arzt ohne Facharzt-Weiterbildung"
              }
            ]
          }
        ],
        "telecom": [
          {
            "system": "email",
            "value": "mueller.michael@berlin-klinikum.de"
          },
          {
            "system": "phone",
            "value": "0049301236789"
          }
        ]
      }
    },
    {
      "fullUrl": "https://gematik.de/fhir/epa-medication/Organization/88d8eb73-da4a-452a-bfaa-a05df0976171",
      "resource": {
        "resourceType": "Organization",
        "id": "88d8eb73-da4a-452a-bfaa-a05df0976171",
        "meta": {
          "tag": [
            {
              "system": "https://gematik.de/fhir/directory/CodeSystem/Origin"
            }
          ],
          "versionId": "1",
          "lastUpdated": "2023-02-03T11:30:00+01:00",
          "profile": [
            "https://gematik.de/fhir/directory/StructureDefinition/OrganizationDirectory"
          ]
        },
        "identifier": [
          {
            "type": {
              "coding": [
                {
                  "system": "http://terminology.hl7.org/CodeSystem/v2-0203",
                  "code": "PRN",
                  "display": "Provider number"
                }
              ]
            },
            "system": "https://gematik.de/fhir/sid/telematik-id",
            "value": "T010101010101010"
          }
        ],
        "type": [
          {
            "coding": [
              {
                "system": "https://gematik.de/fhir/directory/CodeSystem/OrganizationProfessionOID",
                "code": "1.2.276.0.76.4.53",
                "version": "0.11.12",
                "display": "Krankenhaus"
              }
            ]
          }
        ],
        "name": "Berlin Klinikum GmbH",
        "telecom": [
          {
            "system": "email",
            "value": "info@berlin-klinikum.de"
          },
          {
            "system": "phone",
            "value": "0049301230"
          }
        ],
        "address": [
          {
            "type": "both",
            "line": [
              "Berliner Straße 1"
            ],
            "city": "Berlin",
            "postalCode": "11011",
            "country": "D"
          }
        ]
      }
    },
    {
      "fullUrl": "https://gematik.de/fhir/epa-medication/Provenance/60625c8f-1a9a-4962-ba57-d75535acc2fb",
      "resource": {
        "resourceType": "Provenance",
        "id": "60625c8f-1a9a-4962-ba57-d75535acc2fb",
        "meta": {
          "versionId": "1",
          "lastUpdated": "2023-03-16T09:17:00+01:00",
          "profile": [
            "https://gematik.de/fhir/epa/StructureDefinition/epa-provenance"
          ]
        },
        "target": [
          {
            "reference": "https://gematik.de/fhir/epa-medication/MedicationStatement/29a30030-e5a2-4ee4-a206-aac210277c74/_history/2"
          }
        ],
        "occurredDateTime": "2023-03-16T09:17:00+01:00",
        "recorded": "2023-03-16T09:17:00+01:00",
        "activity": {
          "coding": [
            {
              "code": "UPDATE",
              "system": "http://terminology.hl7.org/CodeSystem/v3-DataOperation",
              "version": "2018-08-12",
              "display": "revise"
            }
          ]
        },
        "agent": [
          {
            "type": {
              "coding": [
                {
                  "code": "author",
                  "system": "http://terminology.hl7.org/CodeSystem/provenance-participant-type",
                  "version": "4.0.1",
                  "display": "Author"
                }
              ]
            },
            "who": {
              "reference": "https://gematik.de/fhir/epa-medication/PractitionerRole/1c2d8b31-07ef-43a3-b341-1457f3ca4071"
            }
          }
        ]
      }
    },
    {
      "fullUrl": "https://gematik.de/fhir/epa-medication/Provenance/16732f3e-2298-40bd-9e20-bf3cdafc91d5",
      "resource": {
        "resourceType": "Provenance",
        "id": "16732f3e-2298-40bd-9e20-bf3cdafc91d5",
        "meta": {
          "versionId": "1",
          "lastUpdated": "2017-06-15T14:30:00+01:00",
          "profile": [
            "https://gematik.de/fhir/epa/StructureDefinition/epa-provenance"
          ]
        },
        "target": [
          {
            "reference": "https://gematik.de/fhir/epa-medication/MedicationStatement/ab5cfb86-93f6-4968-9394-51b4da619ac6/_history/1"
          }
        ],
        "occurredDateTime": "2017-06-15T14:30:00+01:00",
        "recorded": "2017-06-15T14:30:00+01:00",
        "activity": {
          "coding": [
            {
              "code": "CREATE",
              "system": "http://terminology.hl7.org/CodeSystem/v3-DataOperation",
              "version": "2018-08-12",
              "display": "create"
            }
          ]
        },
        "agent": [
          {
            "type": {
              "coding": [
                {
                  "code": "author",
                  "system": "http://terminology.hl7.org/CodeSystem/provenance-participant-type",
                  "version": "4.0.1",
                  "display": "Author"
                }
              ]
            },
            "who": {
              "reference": "https://gematik.de/fhir/epa-medication/PractitionerRole/363e6227-9487-4a69-8b19-0597a767a5a9"
            }
          }
        ]
      }
    },
    {
      "fullUrl": "https://gematik.de/fhir/epa-medication/Provenance/b5106c14-cd20-4100-946b-b2dbe0b80a5f",
      "resource": {
        "resourceType": "Provenance",
        "id": "b5106c14-cd20-4100-946b-b2dbe0b80a5f",
        "meta": {
          "versionId": "1",
          "lastUpdated": "2013-07-15T08:30:00+01:00",
          "profile": [
            "https://gematik.de/fhir/epa/StructureDefinition/epa-provenance"
          ]
        },
        "target": [
          {
            "reference": "https://gematik.de/fhir/epa-medication/MedicationStatement/5bbb22e6-de02-4411-ad6f-9ffc110b7807/_history/1"
          }
        ],
        "occurredDateTime": "2013-07-15T08:30:00+01:00",
        "recorded": "2013-07-15T08:30:00+01:00",
        "activity": {
          "coding": [
            {
              "code": "CREATE",
              "system": "http://terminology.hl7.org/CodeSystem/v3-DataOperation",
              "version": "2018-08-12",
              "display": "create"
            }
          ]
        },
        "agent": [
          {
            "type": {
              "coding": [
                {
                  "code": "author",
                  "system": "http://terminology.hl7.org/CodeSystem/provenance-participant-type",
                  "version": "4.0.1",
                  "display": "Author"
                }
              ]
            },
            "who": {
              "reference": "https://gematik.de/fhir/epa-medication/PractitionerRole/363e6227-9487-4a69-8b19-0597a767a5a9"
            }
          }
        ]
      }
    },
    {
      "fullUrl": "https://gematik.de/fhir/epa-medication/Provenance/a8a7405f-a5e1-4698-a83f-e143c7d8536d",
      "resource": {
        "resourceType": "Provenance",
        "id": "a8a7405f-a5e1-4698-a83f-e143c7d8536d",
        "meta": {
          "versionId": "1",
          "lastUpdated": "2023-03-16T09:17:00+01:00",
          "profile": [
            "https://gematik.de/fhir/epa/StructureDefinition/epa-provenance"
          ]
        },
        "target": [
          {
            "reference": "https://gematik.de/fhir/epa-medication/List/6b2ae15e-d71f-4bc8-9892-5db8bb16a209/_history/2"
          }
        ],
        "occurredDateTime": "2013-03-16T09:17:00+01:00",
        "recorded": "2023-03-16T09:17:00+01:00",
        "activity": {
          "coding": [
            {
              "code": "UPDATE",
              "system": "http://terminology.hl7.org/CodeSystem/v3-DataOperation",
              "version": "2018-08-12",
              "display": "revise"
            }
          ]
        },
        "agent": [
          {
            "type": {
              "coding": [
                {
                  "code": "author",
                  "system": "http://terminology.hl7.org/CodeSystem/provenance-participant-type",
                  "version": "4.0.1",
                  "display": "Author"
                }
              ]
            },
            "who": {
              "reference": "https://gematik.de/fhir/epa-medication/PractitionerRole/1c2d8b31-07ef-43a3-b341-1457f3ca4071"
            }
          }
        ]
      }
    },
    {
      "fullUrl": "https://gematik.de/fhir/epa-medication/Provenance/586cc036-e453-402a-b738-efa662150dc6",
      "resource": {
        "resourceType": "Provenance",
        "id": "586cc036-e453-402a-b738-efa662150dc6",
        "meta": {
          "versionId": "1",
          "lastUpdated": "2013-07-15T08:30:00+01:00",
          "profile": [
            "https://gematik.de/fhir/epa/StructureDefinition/epa-provenance"
          ]
        },
        "target": [
          {
            "reference": "https://gematik.de/fhir/epa-medication/Observation/bb284681-dd3e-4685-a889-d6a16b68f481/_history/1"
          }
        ],
        "occurredDateTime": "2013-07-15T08:30:00+01:00",
        "recorded": "2013-07-15T08:30:00+01:00",
        "activity": {
          "coding": [
            {
              "code": "CREATE",
              "system": "http://terminology.hl7.org/CodeSystem/v3-DataOperation",
              "version": "2018-08-12",
              "display": "create"
            }
          ]
        },
        "agent": [
          {
            "type": {
              "coding": [
                {
                  "code": "author",
                  "system": "http://terminology.hl7.org/CodeSystem/provenance-participant-type",
                  "version": "4.0.1",
                  "display": "Author"
                }
              ]
            },
            "who": {
              "reference": "https://gematik.de/fhir/epa-medication/PractitionerRole/363e6227-9487-4a69-8b19-0597a767a5a9"
            }
          }
        ]
      }
    },
    {
      "fullUrl": "https://gematik.de/fhir/epa-medication/Provenance/ffd6eff8-beaa-4762-a3dd-d97ab01552e5",
      "resource": {
        "resourceType": "Provenance",
        "id": "ffd6eff8-beaa-4762-a3dd-d97ab01552e5",
        "meta": {
          "versionId": "1",
          "lastUpdated": "2013-07-15T08:30:00+01:00",
          "profile": [
            "https://gematik.de/fhir/epa/StructureDefinition/epa-provenance"
          ]
        },
        "target": [
          {
            "reference": "https://gematik.de/fhir/epa-medication/Observation/af39215c-9f2a-49c1-af20-0be78da88ba4/_history/1"
          }
        ],
        "occurredDateTime": "2013-07-15T08:30:00+01:00",
        "recorded": "2013-07-15T08:30:00+01:00",
        "activity": {
          "coding": [
            {
              "code": "CREATE",
              "system": "http://terminology.hl7.org/CodeSystem/v3-DataOperation",
              "version": "2018-08-12",
              "display": "create"
            }
          ]
        },
        "agent": [
          {
            "type": {
              "coding": [
                {
                  "code": "author",
                  "system": "http://terminology.hl7.org/CodeSystem/provenance-participant-type",
                  "version": "4.0.1",
                  "display": "Author"
                }
              ]
            },
            "who": {
              "reference": "https://gematik.de/fhir/epa-medication/PractitionerRole/363e6227-9487-4a69-8b19-0597a767a5a9"
            }
          }
        ]
      }
    },
    {
      "fullUrl": "https://gematik.de/fhir/epa-medication/Provenance/8b1b1269-ee80-476c-bc89-e51d031cc8ff",
      "resource": {
        "resourceType": "Provenance",
        "id": "8b1b1269-ee80-476c-bc89-e51d031cc8ff",
        "meta": {
          "versionId": "1",
          "lastUpdated": "2023-03-16T09:17:00+01:00",
          "profile": [
            "https://gematik.de/fhir/epa/StructureDefinition/epa-provenance"
          ]
        },
        "target": [
          {
            "reference": "https://gematik.de/fhir/epa-medication/Observation/9b9ada45-a7b7-47d7-a1a0-a1157eacda41/_history/1"
          }
        ],
        "occurredDateTime": "2013-03-16T09:17:00+01:00",
        "recorded": "2023-03-16T09:17:00+01:00",
        "activity": {
          "coding": [
            {
              "code": "CREATE",
              "system": "http://terminology.hl7.org/CodeSystem/v3-DataOperation",
              "version": "2018-08-12",
              "display": "create"
            }
          ]
        },
        "agent": [
          {
            "type": {
              "coding": [
                {
                  "code": "author",
                  "system": "http://terminology.hl7.org/CodeSystem/provenance-participant-type",
                  "version": "4.0.1",
                  "display": "Author"
                }
              ]
            },
            "who": {
              "reference": "https://gematik.de/fhir/epa-medication/PractitionerRole/1c2d8b31-07ef-43a3-b341-1457f3ca4071"
            }
          }
        ]
      }
    },
    {
      "fullUrl": "https://gematik.de/fhir/epa-medication/Provenance/c6047efd-7bdd-4e2a-8a66-94d91d379a1a",
      "resource": {
        "resourceType": "Provenance",
        "id": "c6047efd-7bdd-4e2a-8a66-94d91d379a1a",
        "meta": {
          "versionId": "1",
          "lastUpdated": "2023-03-16T09:17:00+01:00",
          "profile": [
            "https://gematik.de/fhir/epa/StructureDefinition/epa-provenance"
          ]
        },
        "target": [
          {
            "reference": "https://gematik.de/fhir/epa-medication/Observation/b99b9018-afbf-413b-8248-4c05ebab2cba/_history/1"
          }
        ],
        "occurredDateTime": "2013-03-16T09:17:00+01:00",
        "recorded": "2023-03-16T09:17:00+01:00",
        "activity": {
          "coding": [
            {
              "code": "CREATE",
              "system": "http://terminology.hl7.org/CodeSystem/v3-DataOperation",
              "version": "2018-08-12",
              "display": "create"
            }
          ]
        },
        "agent": [
          {
            "type": {
              "coding": [
                {
                  "code": "author",
                  "system": "http://terminology.hl7.org/CodeSystem/provenance-participant-type",
                  "version": "4.0.1",
                  "display": "Author"
                }
              ]
            },
            "who": {
              "reference": "https://gematik.de/fhir/epa-medication/PractitionerRole/1c2d8b31-07ef-43a3-b341-1457f3ca4071"
            }
          }
        ]
      }
    }
  ]
}